<?xml version="1.0" encoding="UTF-8"?>

<Bundle xmlns="http://hl7.org/fhir">
  <id value="bemycareneteagreementdemand1"/>
  <meta>
    <profile value="https://www.ehealth.fgov.be/standards/fhir/StructureDefinition/be-mycareneteagreementdemand"/>
  </meta>
  <type value="message"/>
  <entry>
    <fullUrl value="MessageHeader/2"/>
    <resource>
      <MessageHeader>
        <id value="MessageHeader2"/>
        <meta>
          <profile value="https://www.ehealth.fgov.be/standards/fhir/StructureDefinition/be-mycareneteagreementmessageheader"/>
        </meta>
        <text>
          <status value="generated"/><div xmlns="http://www.w3.org/1999/xhtml"><p><b>Generated Narrative with Details</b></p><p><b>id</b>: MessageHeader2</p><p><b>meta</b>: </p><p><b>event</b>: claim-ask (Details: https://www.ehealth.fgov.be/standards/fhir/CodeSystem/message-events code claim-ask = 'claim-ask', stated as 'null')</p><h3>Sources</h3><table class="grid"><tr><td>-</td><td><b>Endpoint</b></td></tr><tr><td>*</td><td><a href="testuri">testuri</a></td></tr></table></div>
        </text>
        <eventCoding>
          <system value="https://www.ehealth.fgov.be/standards/fhir/CodeSystem/message-events"/>
          <code value="claim-ask"/>
        </eventCoding>
        <source>
          <endpoint value="testuri"/>
        </source>
      </MessageHeader>
    </resource>
  </entry>
  <entry>
    <fullUrl value="test2"/>
    <resource>
      <Practitioner>
        <id value="Practitioner2"/>
        <meta>
          <profile value="https://www.ehealth.fgov.be/standards/fhir/StructureDefinition/be-practitioner"/>
        </meta>
        <text>
          <status value="generated"/><div xmlns="http://www.w3.org/1999/xhtml"><p><b>Generated Narrative with Details</b></p><p><b>id</b>: Practitioner2</p><p><b>meta</b>: </p><p><b>name</b>: Dupont</p></div>
        </text>
        <name>
          <text value="Dupont"/>
        </name>
      </Practitioner>
    </resource>
  </entry>
  <entry>
    <fullUrl value="Claim/2"/>
    <resource>
      <Claim>
        <id value="Claim2"/>
        <meta>
          <profile value="https://www.ehealth.fgov.be/standards/fhir/StructureDefinition/be-mycarenetclaim"/>
        </meta>
        <text>
          <status value="generated"/><div xmlns="http://www.w3.org/1999/xhtml"><p><b>Generated Narrative with Details</b></p><p><b>id</b>: Claim2</p><p><b>meta</b>: </p><p><b>identifier</b>: 1111</p><p><b>status</b>: active</p><p><b>type</b>: Institutional <span style="background: LightGoldenRodYellow">(Details : {http://terminology.hl7.org/CodeSystem/claim-type code 'institutional' = 'Institutional)</span></p><p><b>subType</b>: physiotherapy_fa <span style="background: LightGoldenRodYellow">(Details : {https://www.ehealth.fgov.be/standards/fhir/CodeSystem/agreement-types code 'physiotherapy_fa' = 'physiotherapy_fa)</span></p><p><b>use</b>: claim</p><p><b>patient</b>: <a href="#backboneelement_Patient2">Generated Summary: unknown resource entry</a></p><p><b>created</b>: 07-avr.-2020 0:00:00</p><p><b>enterer</b>: <a href="#backboneelement_Practitioner2">Generated Summary: unknown resource entry</a></p><p><b>provider</b>: <a href="#backboneelement_Practitioner2">Generated Summary: unknown resource entry</a></p><p><b>priority</b>: Normal <span style="background: LightGoldenRodYellow">(Details : {http://terminology.hl7.org/CodeSystem/processpriority code 'normal' = 'Normal)</span></p><h3>Insurances</h3><table class="grid"><tr><td>-</td><td><b>Sequence</b></td><td><b>Focal</b></td><td><b>Coverage</b></td></tr><tr><td>*</td><td>1</td><td>true</td><td><a href="#backboneelement_Coverage2">Generated Summary: unknown resource entry</a></td></tr></table></div>
        </text>
        <identifier>
          <system value="https://www.ehealth.fgov.be/standards/fhir/id"/>
          <value value="1111"/>
        </identifier>
        <status value="active"/>
        <type>
          <coding>
            <system value="http://terminology.hl7.org/CodeSystem/claim-type"/>
            <code value="institutional"/>
          </coding>
        </type>
        <subType>
          <coding>
            <system value="https://www.ehealth.fgov.be/standards/fhir/CodeSystem/agreement-types"/>
            <code value="physiotherapy_fa"/>
          </coding>
        </subType>
        <use value="claim"/>
        <patient>
          <reference value="Patient/Patient2"/>
        </patient>
        <created value="2020-04-07"/>
        <enterer>
          <reference value="Practitioner/Practitioner2"/>
        </enterer>
        <provider>
          <reference value="Practitioner/Practitioner2"/>
        </provider>
        <priority>
          <coding>
            <system value="http://terminology.hl7.org/CodeSystem/processpriority"/>
            <code value="normal"/>
          </coding>
        </priority>
        <insurance>
          <sequence value="1"/>
          <focal value="true"/>
          <coverage>
            <reference value="Coverage/Coverage2"/>
          </coverage>
        </insurance>
      </Claim>
    </resource>
  </entry>
  <entry>
    <fullUrl value="test4"/>
    <resource>
      <PractitionerRole>
        <id value="PractitionerRole2"/>
        <meta>
          <profile value="https://www.ehealth.fgov.be/standards/fhir/StructureDefinition/be-practitionerrole"/>
        </meta>
        <text>
          <status value="generated"/><div xmlns="http://www.w3.org/1999/xhtml"><p><b>Generated Narrative with Details</b></p><p><b>id</b>: PractitionerRole2</p><p><b>meta</b>: </p><p><b>practitioner</b>: <a href="#backboneelement_Practitioner2">Generated Summary: unknown resource entry</a></p></div>
        </text>
        <practitioner>
          <reference value="Practitioner/Practitioner2"/>
        </practitioner>
      </PractitionerRole>
    </resource>
  </entry>
  <entry>
    <fullUrl value="test5"/>
    <resource>
      <Coverage>
        <id value="Coverage2"/>
        <text>
          <status value="generated"/><div xmlns="http://www.w3.org/1999/xhtml"><p><b>Generated Narrative with Details</b></p><p><b>id</b>: Coverage2</p><p><b>status</b>: active</p><p><b>beneficiary</b>: <a href="#backboneelement_Patient2">Generated Summary: unknown resource entry</a></p><p><b>payor</b>: <a href="#backboneelement_Patient2">Generated Summary: unknown resource entry</a></p></div>
        </text>
        <status value="active"/>
        <beneficiary>
          <reference value="Patient/Patient2"/>
        </beneficiary>
        <payor>
          <reference value="Patient/Patient2"/>
        </payor>
      </Coverage>
    </resource>
  </entry>
  <entry>
    <fullUrl value="test6"/>
    <resource>
      <Organization>
        <id value="Organization2"/>
        <meta>
          <profile value="https://www.ehealth.fgov.be/standards/fhir/StructureDefinition/be-organization"/>
        </meta>
        <text>
          <status value="generated"/><div xmlns="http://www.w3.org/1999/xhtml"><p><b>Generated Narrative with Details</b></p><p><b>id</b>: Organization2</p><p><b>meta</b>: </p><p><b>name</b>: testorga</p></div>
        </text>
        <name value="testorga"/>
      </Organization>
    </resource>
  </entry>
  <entry>
    <fullUrl value="test7"/>
    <resource>
      <Patient>
        <id value="Patient2"/>
        <meta>
          <profile value="https://www.ehealth.fgov.be/standards/fhir/StructureDefinition/be-patient"/>
        </meta>
        <text>
          <status value="generated"/><div xmlns="http://www.w3.org/1999/xhtml"><p><b>Generated Narrative with Details</b></p><p><b>id</b>: Patient2</p><p><b>meta</b>: </p><p><b>gender</b>: male</p></div>
        </text>
        <gender value="male"/>
      </Patient>
    </resource>
  </entry>
</Bundle>