<?xml version="1.0" encoding="UTF-8"?>

<Bundle xmlns="http://hl7.org/fhir">
  <id value="bundle1"/>
  <type value="transaction"/>
  <entry>
    <fullUrl value="urn:uuid:8df87da3-5c85-4bea-8996-33b364a0eea9"/>
    <resource>
      <Practitioner>
        <id value="Practitioner2"/>
        <meta>
          <profile value="https://www.ehealth.fgov.be/standards/fhir/StructureDefinition/be-practitioner"/>
        </meta>
        <text>
          <status value="generated"/><div xmlns="http://www.w3.org/1999/xhtml"><p><b>Generated Narrative with Details</b></p><p><b>id</b>: Practitioner2</p><p><b>meta</b>: </p><p><b>name</b>: Dupont</p></div>
        </text>
        <name>
          <text value="Dupont"/>
        </name>
      </Practitioner>
    </resource>
    <request>
      <method value="POST"/>
      <url value="Practitioner"/>
    </request>
  </entry>
  <entry>
    <fullUrl value="urn:uuid:2a971dd8-b621-4a74-b984-ca2a7a619220"/>
    <resource>
      <Organization>
        <id value="Organization2"/>
        <meta>
          <profile value="https://www.ehealth.fgov.be/standards/fhir/StructureDefinition/be-organization"/>
        </meta>
        <text>
          <status value="generated"/><div xmlns="http://www.w3.org/1999/xhtml"><p><b>Generated Narrative with Details</b></p><p><b>id</b>: Organization2</p><p><b>meta</b>: </p><p><b>name</b>: testorga</p></div>
        </text>
        <name value="testorga"/>
      </Organization>
    </resource>
    <request>
      <method value="POST"/>
      <url value="Organization"/>
    </request>
  </entry>
  <entry>
    <fullUrl value="urn:uuid:8cf2c41f-988e-40b8-8832-cad4f10803f5"/>
    <resource>
      <Provenance>
        <id value="Provenance2"/>
        <meta>
          <profile value="https://www.ehealth.fgov.be/standards/fhir/StructureDefinition/be-provenance"/>
        </meta>
        <text>
          <status value="generated"/><div xmlns="http://www.w3.org/1999/xhtml"><p><b>Generated Narrative with Details</b></p><p><b>id</b>: Provenance2</p><p><b>meta</b>: </p><p><b>target</b>: <a href="#backboneelement_Practitioner2">Generated Summary: unknown resource entry</a></p><p><b>recorded</b>: 27-juin-2019 8:39:24</p><p><b>reason</b>: Healthcare Operations <span style="background: LightGoldenRodYellow">(Details : {http://terminology.hl7.org/CodeSystem/v3-ActReason code 'HOPERAT' = 'healthcare operations', given as 'Healthcare Operations'})</span></p><p><b>activity</b>: create <span style="background: LightGoldenRodYellow">(Details : {http://terminology.hl7.org/CodeSystem/v3-DataOperation code 'CREATE' = 'create)</span></p><h3>Agents</h3><table class="grid"><tr><td>-</td><td><b>Type</b></td><td><b>Who</b></td></tr><tr><td>*</td><td>Author <span style="background: LightGoldenRodYellow">(Details : {http://terminology.hl7.org/CodeSystem/provenance-participant-type code 'author' = 'Author)</span></td><td><a href="#backboneelement_Organization2">Enterprise Hospital Ziekenhuis. Generated Summary: unknown resource entry</a></td></tr></table></div>
        </text>
        <target>
          <reference value="urn:uuid:8df87da3-5c85-4bea-8996-33b364a0eea9"/>
        </target>
        <recorded value="2019-06-27T08:39:24+02:00"/>
        <reason>
          <coding>
            <system value="http://terminology.hl7.org/CodeSystem/v3-ActReason"/>
            <code value="HOPERAT"/>
            <display value="Healthcare Operations"/>
          </coding>
        </reason>
        <activity>
          <coding>
            <system value="http://terminology.hl7.org/CodeSystem/v3-DataOperation"/>
            <code value="CREATE"/>
          </coding>
        </activity>
        <agent>
          <type>
            <coding>
              <system value="http://terminology.hl7.org/CodeSystem/provenance-participant-type"/>
              <code value="author"/>
            </coding>
          </type>
          <who>
            <reference value="urn:uuid:2a971dd8-b621-4a74-b984-ca2a7a619220"/>
            <display value="Enterprise Hospital Ziekenhuis"/>
          </who>
        </agent>
      </Provenance>
    </resource>
    <request>
      <method value="POST"/>
      <url value="Provenance"/>
    </request>
  </entry>
</Bundle>