{
  "resourceType": "Bundle",
  "id": "bundle1",
  "type": "transaction",
  "entry": [
    {
      "fullUrl": "urn:uuid:8df87da3-5c85-4bea-8996-33b364a0eea9",
      "resource": {
        "resourceType": "Practitioner",
        "id": "Practitioner2",
        "meta": {
          "profile": [
            "https://www.ehealth.fgov.be/standards/fhir/StructureDefinition/be-practitioner"
          ]
        },
        "text": {
          "status": "generated",
          "div": "<div xmlns=\"http://www.w3.org/1999/xhtml\"><p><b>Generated Narrative with Details</b></p><p><b>id</b>: Practitioner2</p><p><b>meta</b>: </p><p><b>name</b>: Dupont</p></div>"
        },
        "name": [
          {
            "text": "Dupont"
          }
        ]
      },
      "request": {
        "method": "POST",
        "url": "Practitioner"
      }
    },
    {
      "fullUrl": "urn:uuid:2a971dd8-b621-4a74-b984-ca2a7a619220",
      "resource": {
        "resourceType": "Organization",
        "id": "Organization2",
        "meta": {
          "profile": [
            "https://www.ehealth.fgov.be/standards/fhir/StructureDefinition/be-organization"
          ]
        },
        "text": {
          "status": "generated",
          "div": "<div xmlns=\"http://www.w3.org/1999/xhtml\"><p><b>Generated Narrative with Details</b></p><p><b>id</b>: Organization2</p><p><b>meta</b>: </p><p><b>name</b>: testorga</p></div>"
        },
        "name": "testorga"
      },
      "request": {
        "method": "POST",
        "url": "Organization"
      }
    },
    {
      "fullUrl": "urn:uuid:8cf2c41f-988e-40b8-8832-cad4f10803f5",
      "resource": {
        "resourceType": "Provenance",
        "id": "Provenance2",
        "meta": {
          "profile": [
            "https://www.ehealth.fgov.be/standards/fhir/StructureDefinition/be-provenance"
          ]
        },
        "text": {
          "status": "generated",
          "div": "<div xmlns=\"http://www.w3.org/1999/xhtml\"><p><b>Generated Narrative with Details</b></p><p><b>id</b>: Provenance2</p><p><b>meta</b>: </p><p><b>target</b>: <a href=\"#backboneelement_Practitioner2\">Generated Summary: unknown resource entry</a></p><p><b>recorded</b>: 27-juin-2019 8:39:24</p><p><b>reason</b>: Healthcare Operations <span style=\"background: LightGoldenRodYellow\">(Details : {http://terminology.hl7.org/CodeSystem/v3-ActReason code 'HOPERAT' = 'healthcare operations', given as 'Healthcare Operations'})</span></p><p><b>activity</b>: create <span style=\"background: LightGoldenRodYellow\">(Details : {http://terminology.hl7.org/CodeSystem/v3-DataOperation code 'CREATE' = 'create)</span></p><h3>Agents</h3><table class=\"grid\"><tr><td>-</td><td><b>Type</b></td><td><b>Who</b></td></tr><tr><td>*</td><td>Author <span style=\"background: LightGoldenRodYellow\">(Details : {http://terminology.hl7.org/CodeSystem/provenance-participant-type code 'author' = 'Author)</span></td><td><a href=\"#backboneelement_Organization2\">Enterprise Hospital Ziekenhuis. Generated Summary: unknown resource entry</a></td></tr></table></div>"
        },
        "target": [
          {
            "reference": "urn:uuid:8df87da3-5c85-4bea-8996-33b364a0eea9"
          }
        ],
        "recorded": "2019-06-27T08:39:24+02:00",
        "reason": [
          {
            "coding": [
              {
                "system": "http://terminology.hl7.org/CodeSystem/v3-ActReason",
                "code": "HOPERAT",
                "display": "Healthcare Operations"
              }
            ]
          }
        ],
        "activity": {
          "coding": [
            {
              "system": "http://terminology.hl7.org/CodeSystem/v3-DataOperation",
              "code": "CREATE"
            }
          ]
        },
        "agent": [
          {
            "type": {
              "coding": [
                {
                  "system": "http://terminology.hl7.org/CodeSystem/provenance-participant-type",
                  "code": "author"
                }
              ]
            },
            "who": {
              "reference": "urn:uuid:2a971dd8-b621-4a74-b984-ca2a7a619220",
              "display": "Enterprise Hospital Ziekenhuis"
            }
          }
        ]
      },
      "request": {
        "method": "POST",
        "url": "Provenance"
      }
    }
  ]
}