{
  "resourceType": "Bundle",
  "id": "bemycareneteagreementdemand1",
  "meta": {
    "profile": [
      "https://www.ehealth.fgov.be/standards/fhir/StructureDefinition/be-mycareneteagreementdemand"
    ]
  },
  "type": "message",
  "entry": [
    {
      "fullUrl": "MessageHeader/2",
      "resource": {
        "resourceType": "MessageHeader",
        "id": "MessageHeader2",
        "meta": {
          "profile": [
            "https://www.ehealth.fgov.be/standards/fhir/StructureDefinition/be-mycareneteagreementmessageheader"
          ]
        },
        "text": {
          "status": "generated",
          "div": "<div xmlns=\"http://www.w3.org/1999/xhtml\"><p><b>Generated Narrative with Details</b></p><p><b>id</b>: MessageHeader2</p><p><b>meta</b>: </p><p><b>event</b>: claim-ask (Details: https://www.ehealth.fgov.be/standards/fhir/CodeSystem/message-events code claim-ask = 'claim-ask', stated as 'null')</p><h3>Sources</h3><table class=\"grid\"><tr><td>-</td><td><b>Endpoint</b></td></tr><tr><td>*</td><td><a href=\"testuri\">testuri</a></td></tr></table></div>"
        },
        "eventCoding": {
          "system": "https://www.ehealth.fgov.be/standards/fhir/CodeSystem/message-events",
          "code": "claim-ask"
        },
        "source": {
          "endpoint": "testuri"
        }
      }
    },
    {
      "fullUrl": "test2",
      "resource": {
        "resourceType": "Practitioner",
        "id": "Practitioner2",
        "meta": {
          "profile": [
            "https://www.ehealth.fgov.be/standards/fhir/StructureDefinition/be-practitioner"
          ]
        },
        "text": {
          "status": "generated",
          "div": "<div xmlns=\"http://www.w3.org/1999/xhtml\"><p><b>Generated Narrative with Details</b></p><p><b>id</b>: Practitioner2</p><p><b>meta</b>: </p><p><b>name</b>: Dupont</p></div>"
        },
        "name": [
          {
            "text": "Dupont"
          }
        ]
      }
    },
    {
      "fullUrl": "Claim/2",
      "resource": {
        "resourceType": "Claim",
        "id": "Claim2",
        "meta": {
          "profile": [
            "https://www.ehealth.fgov.be/standards/fhir/StructureDefinition/be-mycarenetclaim"
          ]
        },
        "text": {
          "status": "generated",
          "div": "<div xmlns=\"http://www.w3.org/1999/xhtml\"><p><b>Generated Narrative with Details</b></p><p><b>id</b>: Claim2</p><p><b>meta</b>: </p><p><b>identifier</b>: 1111</p><p><b>status</b>: active</p><p><b>type</b>: Institutional <span style=\"background: LightGoldenRodYellow\">(Details : {http://terminology.hl7.org/CodeSystem/claim-type code 'institutional' = 'Institutional)</span></p><p><b>subType</b>: physiotherapy_fa <span style=\"background: LightGoldenRodYellow\">(Details : {https://www.ehealth.fgov.be/standards/fhir/CodeSystem/agreement-types code 'physiotherapy_fa' = 'physiotherapy_fa)</span></p><p><b>use</b>: claim</p><p><b>patient</b>: <a href=\"#backboneelement_Patient2\">Generated Summary: unknown resource entry</a></p><p><b>created</b>: 07-avr.-2020 0:00:00</p><p><b>enterer</b>: <a href=\"#backboneelement_Practitioner2\">Generated Summary: unknown resource entry</a></p><p><b>provider</b>: <a href=\"#backboneelement_Practitioner2\">Generated Summary: unknown resource entry</a></p><p><b>priority</b>: Normal <span style=\"background: LightGoldenRodYellow\">(Details : {http://terminology.hl7.org/CodeSystem/processpriority code 'normal' = 'Normal)</span></p><h3>Insurances</h3><table class=\"grid\"><tr><td>-</td><td><b>Sequence</b></td><td><b>Focal</b></td><td><b>Coverage</b></td></tr><tr><td>*</td><td>1</td><td>true</td><td><a href=\"#backboneelement_Coverage2\">Generated Summary: unknown resource entry</a></td></tr></table></div>"
        },
        "identifier": [
          {
            "system": "https://www.ehealth.fgov.be/standards/fhir/id",
            "value": "1111"
          }
        ],
        "status": "active",
        "type": {
          "coding": [
            {
              "system": "http://terminology.hl7.org/CodeSystem/claim-type",
              "code": "institutional"
            }
          ]
        },
        "subType": {
          "coding": [
            {
              "system": "https://www.ehealth.fgov.be/standards/fhir/CodeSystem/agreement-types",
              "code": "physiotherapy_fa"
            }
          ]
        },
        "use": "claim",
        "patient": {
          "reference": "Patient/Patient2"
        },
        "created": "2020-04-07",
        "enterer": {
          "reference": "Practitioner/Practitioner2"
        },
        "provider": {
          "reference": "Practitioner/Practitioner2"
        },
        "priority": {
          "coding": [
            {
              "system": "http://terminology.hl7.org/CodeSystem/processpriority",
              "code": "normal"
            }
          ]
        },
        "insurance": [
          {
            "sequence": 1,
            "focal": true,
            "coverage": {
              "reference": "Coverage/Coverage2"
            }
          }
        ]
      }
    },
    {
      "fullUrl": "test4",
      "resource": {
        "resourceType": "PractitionerRole",
        "id": "PractitionerRole2",
        "meta": {
          "profile": [
            "https://www.ehealth.fgov.be/standards/fhir/StructureDefinition/be-practitionerrole"
          ]
        },
        "text": {
          "status": "generated",
          "div": "<div xmlns=\"http://www.w3.org/1999/xhtml\"><p><b>Generated Narrative with Details</b></p><p><b>id</b>: PractitionerRole2</p><p><b>meta</b>: </p><p><b>practitioner</b>: <a href=\"#backboneelement_Practitioner2\">Generated Summary: unknown resource entry</a></p></div>"
        },
        "practitioner": {
          "reference": "Practitioner/Practitioner2"
        }
      }
    },
    {
      "fullUrl": "test5",
      "resource": {
        "resourceType": "Coverage",
        "id": "Coverage2",
        "text": {
          "status": "generated",
          "div": "<div xmlns=\"http://www.w3.org/1999/xhtml\"><p><b>Generated Narrative with Details</b></p><p><b>id</b>: Coverage2</p><p><b>status</b>: active</p><p><b>beneficiary</b>: <a href=\"#backboneelement_Patient2\">Generated Summary: unknown resource entry</a></p><p><b>payor</b>: <a href=\"#backboneelement_Patient2\">Generated Summary: unknown resource entry</a></p></div>"
        },
        "status": "active",
        "beneficiary": {
          "reference": "Patient/Patient2"
        },
        "payor": [
          {
            "reference": "Patient/Patient2"
          }
        ]
      }
    },
    {
      "fullUrl": "test6",
      "resource": {
        "resourceType": "Organization",
        "id": "Organization2",
        "meta": {
          "profile": [
            "https://www.ehealth.fgov.be/standards/fhir/StructureDefinition/be-organization"
          ]
        },
        "text": {
          "status": "generated",
          "div": "<div xmlns=\"http://www.w3.org/1999/xhtml\"><p><b>Generated Narrative with Details</b></p><p><b>id</b>: Organization2</p><p><b>meta</b>: </p><p><b>name</b>: testorga</p></div>"
        },
        "name": "testorga"
      }
    },
    {
      "fullUrl": "test7",
      "resource": {
        "resourceType": "Patient",
        "id": "Patient2",
        "meta": {
          "profile": [
            "https://www.ehealth.fgov.be/standards/fhir/StructureDefinition/be-patient"
          ]
        },
        "text": {
          "status": "generated",
          "div": "<div xmlns=\"http://www.w3.org/1999/xhtml\"><p><b>Generated Narrative with Details</b></p><p><b>id</b>: Patient2</p><p><b>meta</b>: </p><p><b>gender</b>: male</p></div>"
        },
        "gender": "male"
      }
    }
  ]
}