{
  "resourceType": "Bundle",
  "id": "bundle1",
  "type": "transaction",
  "entry": [
    {
      "fullUrl": "urn:uuid:8df87da3-5c85-4bea-8996-33b364a0eea9",
      "resource": {
        "resourceType": "Practitioner",
        "id": "Practitioner3",
        "meta": {
          "profile": [
            "https://www.ehealth.fgov.be/standards/fhir/StructureDefinition/be-practitioner"
          ]
        },
        "address": [
          {
            "extension": [
              {
                "url": "http://hl7.org/fhir/StructureDefinition/language",
                "valueCode": "nl"
              }
            ],
            "use": "home",
            "text": "Jupiterlaan 5, 1853 Grimbergen",
            "line": [
              "Jupiterlaan 5"
            ],
            "city": "Grimbergen",
            "postalCode": "1853",
            "country": "BE"
          }
        ],
        "identifier": [
          {
            "use": "official",
            "system": "https://www.ehealth.fgov.be/standards/fhir/NamingSystem/ssin",
            "value": "79121137740"
          },
          {
            "use": "official",
            "system": "https://www.ehealth.fgov.be/standards/fhir/NamingSystem/nihdi",
            "value": "18749704477"
          }
        ],
        "name": [
          {
            "use": "official",
            "family": "Pulaski",
            "given": [
              "Katherine"
            ],
            "suffix": [
              "MD"
            ]
          }
        ],
        "gender": "female",
        "birthDate": "1979-12-11",
        "telecom": [
          {
            "system": "email",
            "value": "katherine.pulaski@enterprisehospital.be",
            "use": "work"
          },
          {
            "system": "phone",
            "value": "022675198",
            "use": "work"
          },
          {
            "system": "fax",
            "value": "022675209",
            "use": "work"
          }
        ]
      },
      "request": {
        "method": "POST",
        "url": "Practitioner"
      }
    },
    {
      "fullUrl": "urn:uuid:2a971dd8-b621-4a74-b984-ca2a7a619220",
      "resource": {
        "resourceType": "Organization",
        "id": "Organization3",
        "meta": {
          "profile": [
            "https://www.ehealth.fgov.be/standards/fhir/StructureDefinition/be-organization"
          ]
        },
        "identifier": [
          {
            "system": "https://www.ehealth.fgov.be/standards/fhir/NamingSystem/cbe",
            "use": "official",
            "type": {
              "coding": [
                {
                  "system": "http://terminology.hl7.org/CodeSystem/v2-0203",
                  "code": "PRN",
                  "display": "Provider Number"
                }
              ]
            },
            "value": "0425.222.333"
          },
          {
            "system": "https://www.ehealth.fgov.be/standards/fhir/NamingSystem/nihdi",
            "use": "official",
            "type": {
              "coding": [
                {
                  "system": "http://terminology.hl7.org/CodeSystem/v2-0203",
                  "code": "MD",
                  "display": "Medical License number"
                }
              ]
            },
            "value": "999999999"
          }
        ],
        "type": [
          {
            "coding": [
              {
                "system": "https://www.ehealth.fgov.be/standards/fhir/CodeSystem/cd-hcparty",
                "code": "orghospital"
              }
            ]
          }
        ],
        "address": [
          {
            "extension": [
              {
                "url": "http://hl7.org/fhir/StructureDefinition/language",
                "valueCode": "nl"
              }
            ],
            "_line": [
              {
                "extension": [
                  {
                    "url": "http://hl7.org/fhir/StructureDefinition/iso21090-ADXP-streetName",
                    "valueString": "Vulcansstraat"
                  },
                  {
                    "url": "http://hl7.org/fhir/StructureDefinition/iso21090-ADXP-houseNumber",
                    "valueString": "120"
                  }
                ]
              }
            ],
            "use": "work",
            "type": "both",
            "text": "Vulcansstraat 120, 1000 Brussel",
            "line": [
              "Vulcansstraat 120"
            ],
            "city": "Brussel",
            "postalCode": "1000",
            "country": "BE"
          },
          {
            "extension": [
              {
                "url": "http://hl7.org/fhir/StructureDefinition/language",
                "valueCode": "fr"
              }
            ],
            "_line": [
              {
                "extension": [
                  {
                    "url": "http://hl7.org/fhir/StructureDefinition/iso21090-ADXP-streetName",
                    "valueString": "Rue des Vulcans"
                  },
                  {
                    "url": "http://hl7.org/fhir/StructureDefinition/iso21090-ADXP-houseNumber",
                    "valueString": "120"
                  }
                ]
              }
            ],
            "use": "work",
            "type": "both",
            "text": "120, Rue des Vulcans, 1000 Bruxelles",
            "line": [
              "120, Rue des Vulcans"
            ],
            "city": "Bruxelles",
            "postalCode": "1000",
            "country": "BE"
          }
        ],
        "active": true,
        "name": "Enterprise Hospital Ziekenhuis",
        "telecom": [
          {
            "system": "phone",
            "value": "322675199",
            "use": "work"
          }
        ]
      },
      "request": {
        "method": "POST",
        "url": "Organization"
      }
    },
    {
      "fullUrl": "urn:uuid:8cf2c41f-988e-40b8-8832-cad4f10803f5",
      "resource": {
        "resourceType": "Provenance",
        "id": "Provenance3",
        "meta": {
          "profile": [
            "https://www.ehealth.fgov.be/standards/fhir/StructureDefinition/be-provenance"
          ]
        },
        "target": [
          {
            "reference": "urn:uuid:8df87da3-5c85-4bea-8996-33b364a0eea9"
          }
        ],
        "recorded": "2019-06-27T08:39:24+02:00",
        "reason": [
          {
            "coding": [
              {
                "system": "http://terminology.hl7.org/CodeSystem/v3-ActReason",
                "code": "HOPERAT",
                "display": "Healthcare Operations"
              }
            ]
          }
        ],
        "activity": {
          "coding": [
            {
              "system": "http://terminology.hl7.org/CodeSystem/v3-DataOperation",
              "code": "CREATE"
            }
          ]
        },
        "agent": [
          {
            "type": {
              "coding": [
                {
                  "system": "http://terminology.hl7.org/CodeSystem/provenance-participant-type",
                  "code": "author"
                }
              ]
            },
            "who": {
              "reference": "urn:uuid:2a971dd8-b621-4a74-b984-ca2a7a619220",
              "display": "Enterprise Hospital Ziekenhuis"
            }
          }
        ]
      },
      "request": {
        "method": "POST",
        "url": "Provenance"
      }
    }
  ]
}
